#dR/dEr [1/keV/kg/Myr]
# Er [keV]  ,  H1  ,  O16  ,  S32  ,  S34  ,  Ni58 , Ni60 , Ni61 , Ni62
0.001011646 71784970.0 1291618.0 36991.44 0.0 790209.1 7490.134 68932.96 653.393
0.001035211 69253240.0 1162806.0 33136.96 0.0 757582.5 18299.09 66086.81 1596.3
0.001059324 67818150.0 1195215.0 26494.91 0.0 833327.1 21459.07 72694.31 1871.956
0.001083999 66096050.0 1133486.0 34522.42 0.0 821348.5 34951.0 71649.36 3048.909
0.001109248 64417220.0 1281991.0 28113.83 0.0 748003.6 23908.79 65251.21 2085.655
0.001135086 63426200.0 1126429.0 27473.88 0.0 817759.7 13351.18 71336.3 1164.674
0.001161526 62511360.0 1181334.0 24163.65 0.0 802407.0 6523.634 69997.02 569.0815
0.001188581 60031060.0 1175433.0 28861.09 0.0 809642.5 6375.138 70628.21 556.1276
0.001216267 59162010.0 1176881.0 23076.11 0.0 722682.6 18690.07 63042.36 1630.406
0.001244597 57705070.0 1125036.0 42596.01 0.0 703188.2 36529.26 61341.79 3186.587
0.001273587 56386640.0 1253689.0 63663.92 0.0 660408.4 17848.87 57609.94 1557.025
0.001303253 55162950.0 1189259.0 38286.0 0.0 715146.0 8721.292 62384.91 760.7916
0.00133361 53526120.0 1211295.0 37414.5 0.0 630685.1 8522.772 55017.07 743.4739
0.001364674 52677920.0 6855.534 22851.78 0.0 605223.9 8328.77 52795.99 726.5504
0.001396461 50976360.0 1194741.0 22331.61 0.0 632143.3 5426.122 55144.27 473.3414
0.001428989 50715120.0 1156634.0 24005.61 0.0 575333.1 13256.52 50188.5 1156.417
0.001462274 49304780.0 1162295.0 14928.56 0.0 536327.3 15545.72 46785.88 1356.113
0.001496335 48426310.0 1177520.0 22925.18 0.0 584886.5 2531.976 51021.88 220.8739
0.001531189 46922770.0 1175157.0 30550.0 0.0 635905.7 7423.024 55472.48 647.5387
0.001566855 46312450.0 1289719.0 23883.68 0.0 565816.3 4836.037 49358.32 421.8659
0.001603352 44680580.0 1180616.0 33065.03 0.0 489136.4 7088.933 42669.23 618.3947
0.001640699 44566370.0 1216466.0 19007.28 0.0 584225.0 4618.379 50964.17 402.8789
0.001678915 42658480.0 1261217.0 33434.32 0.0 530307.1 6769.878 46260.71 590.5623
0.001718022 41799990.0 1194389.0 19966.99 0.0 489567.5 17642.07 42706.84 1538.985
0.00175804 40958490.0 1218644.0 15964.76 0.0 499974.2 19395.55 43614.66 1691.948
0.00179899 39854550.0 1187437.0 10400.91 0.0 520183.5 8424.024 45377.59 734.8598
0.001840894 39115050.0 1151938.0 28798.44 0.0 461007.1 0.0 40215.41 0.0
0.001883774 37888630.0 1200212.0 39731.16 0.0 518894.8 10056.1 45265.17 877.232
0.001927653 37312520.0 1161567.0 25884.51 0.0 485463.5 15723.51 42348.83 1371.622
0.001972553 36363590.0 1217337.0 7904.784 0.0 484016.5 11524.2 42222.6 1005.3
0.0020185 35501860.0 1194262.0 20084.61 0.0 456106.1 9384.899 39787.88 818.6806
0.002065517 34841700.0 1198783.0 30196.04 0.0 399867.5 16508.29 34881.97 1440.081
0.002113629 33998440.0 1136085.0 26557.83 0.0 469635.5 5377.505 40968.09 469.1003
0.002162862 33311050.0 1176549.0 27395.15 0.0 399387.5 12261.9 34840.09 1069.652
0.002213241 32572530.0 1189221.0 16908.35 0.0 436515.6 3423.652 38078.92 298.6582
0.002264794 31864130.0 1197952.0 17900.43 0.0 419887.9 8364.3 36628.42 729.6498
0.002317548 31060770.0 1149153.0 17492.96 0.0 392347.5 6539.124 34225.97 570.4328
0.002371531 30226190.0 1142720.0 23669.69 0.0 356257.9 12780.55 31077.73 1114.896
0.002426771 29554860.0 1042176.0 19275.75 0.0 394984.6 10928.43 34456.01 953.3284
0.002483298 28890900.0 1051103.0 18836.98 0.0 381416.6 15256.66 33272.43 1330.897
0.002541141 28419800.0 989133.8 18408.2 0.0 319060.7 11927.5 27832.89 1040.482
0.002600332 27523440.0 1002597.0 15590.62 0.0 345309.0 8742.001 30122.63 762.5981
0.002660901 26743400.0 961023.2 28127.51 0.0 348839.5 7119.174 30430.6 621.0327
0.002722882 26386610.0 938002.3 18324.83 0.0 352030.4 6957.122 30708.95 606.8963
0.002786306 25647190.0 890908.4 15669.24 0.0 346736.7 8158.51 30247.16 711.698
0.002851207 25068860.0 878285.2 12031.3 0.0 316254.4 6644.0 27588.08 579.5815
0.00291762 24627560.0 928837.6 19239.44 0.0 271397.5 5194.211 23675.04 453.1109
0.00298558 23711830.0 943208.6 8356.222 0.0 291868.6 2537.988 25460.82 221.3984
0.003055124 23546690.0 905406.5 20415.03 0.0 331108.9 7440.649 28883.89 649.0763
0.003126287 22955840.0 894772.1 9975.163 0.0 287215.5 3635.64 25054.91 317.1507
0.003199107 22274410.0 4874.05 9748.101 0.0 290152.1 8290.059 25311.07 723.1735
0.003273624 21707370.0 5715.724 13336.69 0.0 305536.8 8101.354 26653.14 706.7121
0.003349876 21593070.0 4654.682 9309.364 0.0 287272.0 10178.93 25059.83 887.9469
0.003427905 20829540.0 909.7457 13646.19 0.0 254207.0 2210.495 22175.44 192.8299
0.003507751 20299390.0 6223.261 14224.6 0.0 258141.3 5400.446 22518.65 471.1015
0.003589457 19921590.0 4344.002 13900.81 0.0 254376.3 1055.503 22190.22 92.07558
0.003673066 19485100.0 4245.12 11886.34 0.0 265089.6 5157.386 23124.78 449.8984
0.003758623 19269730.0 829.6979 14104.86 0.0 265103.4 6047.987 23125.98 527.589
0.003846173 18900830.0 5675.682 10540.55 0.0 252173.6 2955.159 21998.06 257.7898
0.003935762 18252700.0 2377.066 9508.264 0.0 251246.5 3850.522 21917.2 335.8957
0.004027437 17804690.0 3097.277 9291.83 0.0 211661.6 4703.592 18464.05 410.3122
0.004121248 17565880.0 3783.468 6053.548 0.0 250970.2 4596.525 21893.09 400.9724
0.004217245 17049940.0 4436.814 12570.97 0.0 244359.1 10780.55 21316.38 940.4284
0.004315477 16669780.0 2890.547 14452.73 0.0 233529.2 6145.506 20371.65 536.0959
0.004415997 16315760.0 2118.562 7061.875 0.0 219634.0 1715.891 19159.51 149.6837
0.004518859 15961620.0 2070.338 8281.352 0.0 223018.7 5030.496 19454.77 438.8294
0.004624117 15426310.0 4720.827 10790.46 0.0 183530.2 5735.32 16010.04 500.3138
0.004731826 15065940.0 5272.42 13181.05 0.0 213781.9 2402.043 18649.01 209.5394
0.004842045 14952920.0 1932.152 9016.709 0.0 200308.6 6259.643 17473.68 546.0526
0.00495483 14594930.0 3776.341 11329.02 0.0 186573.3 5352.512 16275.5 466.92
0.005070243 14308840.0 1230.127 6150.636 0.0 195029.4 4483.435 17013.16 391.1071
0.005188344 13886360.0 1803.189 9617.008 0.0 189129.5 5841.839 16498.49 509.6059
0.005309196 13512120.0 2936.906 8810.717 0.0 174833.9 4995.255 15251.43 435.7551
0.005432863 13119590.0 2870.054 7462.139 0.0 189683.0 9065.733 16546.78 790.8385
0.005559411 12890510.0 560.9446 6170.391 0.0 164239.1 3407.451 14327.21 297.2449
0.005688906 12513760.0 1644.528 5481.76 0.0 190469.6 3995.865 16615.39 348.5746
0.005821418 12399270.0 535.698 8571.168 0.0 183530.7 5206.544 16010.08 454.1867
0.005957016 12011800.0 1570.512 3141.024 0.0 169177.0 2544.015 14757.95 221.9241
0.006095773 11746050.0 2557.938 9208.577 0.0 156003.1 3107.632 13608.75 271.0906
0.006237762 11567670.0 2999.655 7499.137 0.0 177354.6 1214.758 15471.32 105.9679
0.006383058 11190030.0 1954.249 6351.311 0.0 147794.7 1780.659 12892.7 155.3337
0.006531738 11005980.0 1432.324 8593.944 0.0 167052.2 3480.253 14572.6 303.5958
0.006683882 10754520.0 3266.014 6998.601 0.0 162682.7 1700.516 14191.44 148.3425
0.00683957 10408950.0 2735.718 5471.435 0.0 157871.8 2215.744 13771.76 193.2878
0.006998884 10199640.0 1782.297 6238.038 0.0 163480.7 3789.288 14261.05 330.5541
0.007161909 10041920.0 870.8633 7837.77 0.0 133309.2 1587.014 11629.07 138.4413
0.007328731 9870363.0 2553.12 7659.36 0.0 142164.9 5686.595 12401.58 496.0634
0.007499439 9688932.0 831.668 6237.51 0.0 146001.5 4041.565 12736.27 352.5612
0.007674123 9330220.0 1219.105 6501.896 0.0 139222.3 4443.264 12144.89 387.6029
0.007852877 9089643.0 2382.71 4765.421 0.0 140395.3 1929.832 12247.22 168.3466
0.008035794 8906410.0 1552.316 3880.789 0.0 120697.9 7072.14 10528.93 616.9298
0.008222971 8759045.0 1896.226 9101.883 0.0 137762.4 1382.232 12017.54 120.5773
0.008414509 8565224.0 1853.062 4817.962 0.0 118867.6 3151.793 10369.28 274.9429
0.008610508 8287680.0 1086.529 3983.939 0.0 132002.1 1760.028 11515.05 153.534
0.008811073 8168046.0 2123.593 3893.254 0.0 125127.4 3009.939 10915.34 262.5684
0.009016309 7934042.0 345.8757 5188.135 0.0 110093.3 1680.814 9603.859 146.6238
0.009226326 7755131.0 676.0051 4394.033 0.0 111693.7 4106.384 9743.464 358.2156
0.009441234 7574969.0 1981.852 5615.248 0.0 109552.5 1605.165 9556.682 140.0246
0.009661149 7469682.0 1936.74 5164.639 0.0 122352.9 1176.47 10673.31 102.628
0.009886186 7175683.0 2208.096 4416.193 0.0 116501.9 1149.69 10162.91 100.2919
0.01011646 7123935.0 2774.358 4623.93 0.0 103363.9 3745.067 9016.823 326.6965
0.01035211 6973824.0 1204.98 4819.922 0.0 106866.7 3293.837 9322.391 287.334
0.01059324 6829211.0 1766.328 2943.879 0.0 114090.7 2861.209 9952.568 249.5942
0.01083999 6502010.0 2013.808 3164.555 0.0 99610.35 1398.04 8689.391 121.9564
0.01109248 6407142.0 1686.83 5341.628 0.0 103490.9 1707.771 9027.908 148.9754
0.01135086 6198657.0 824.2164 5769.515 0.0 111482.3 1001.338 9725.03 87.35057
0.01161526 6163878.0 536.97 3221.82 0.0 91983.24 1630.909 8024.049 142.2704
0.01188581 5987101.0 1574.241 4722.723 0.0 96264.58 318.7569 8397.527 27.80638
0.01216267 5859280.0 1538.407 2820.413 0.0 107467.9 1869.007 9374.834 163.0406
0.01244597 5729915.0 2255.083 3006.777 0.0 101673.1 304.4105 8869.333 26.55489
0.01273587 5657274.0 979.4449 3183.196 0.0 85674.6 1189.925 7473.722 103.8017
0.01303253 5468676.0 1196.437 3589.312 0.0 92736.41 2325.678 8089.751 202.8778
0.0133361 5361732.0 2104.566 3507.61 0.0 94602.76 1988.647 8252.56 173.4772
0.01364674 5287673.0 1599.624 2513.696 0.0 92726.97 2221.005 8088.927 193.7468
0.01396461 5141630.0 893.2643 3796.373 0.0 92244.08 1627.837 8046.803 142.0024
0.01428989 4987056.0 1745.862 3273.492 0.0 81395.05 1060.522 7100.401 92.51336
0.01462274 4892304.0 853.0608 2345.917 0.0 94051.61 1813.667 8204.481 158.2131
0.01496335 4826167.0 1458.875 4168.214 0.0 89631.95 2278.778 7818.937 198.7865
0.01531189 4658061.0 1018.333 2240.334 0.0 82395.56 1732.039 7187.68 151.0924
0.01566855 4512423.0 1194.184 3582.552 0.0 73507.76 2901.622 6412.362 253.1196
0.01603352 4478172.0 1750.502 2723.003 0.0 83885.7 2362.978 7317.67 206.1316
0.01640699 4324157.0 570.2184 3421.311 0.0 78050.61 3463.784 6808.653 302.1591
0.01678915 4262876.0 928.7311 3343.432 0.0 79884.56 1128.313 6968.635 98.42705
0.01718022 4163300.0 363.0363 3448.844 0.0 78286.69 1984.733 6829.247 173.1358
0.0175804 4045117.0 886.9314 3192.953 0.0 78659.73 1939.555 6861.789 169.1948
0.0179899 3959106.0 866.7423 2946.924 0.0 72657.21 1474.204 6338.165 128.6005
0.01840894 3856788.0 1185.818 3388.051 0.0 73061.39 1646.454 6373.424 143.6265
0.01883774 3831574.0 496.6395 3310.93 0.0 73811.78 2011.22 6438.883 175.4464
0.01927653 3699382.0 1132.447 2750.229 0.0 73900.51 1965.439 6446.624 171.4528
0.01972553 3654382.0 1739.052 2213.34 0.0 68761.07 1536.56 5998.291 134.04
0.020185 3534273.0 463.491 1853.964 0.0 66257.39 938.4899 5779.885 81.86806
0.02065517 3448388.0 603.9208 2415.683 0.0 61264.1 1467.404 5344.301 128.0072
0.02113629 3399992.0 1180.348 2065.609 0.0 66681.07 1434.001 5816.844 125.0934
0.02162862 3329664.0 432.5549 1874.405 0.0 69892.81 525.5098 6097.016 45.84223
0.02213241 3244994.0 1409.029 3240.767 0.0 59742.72 1540.643 5211.586 134.3962
0.02264794 3166310.0 826.1735 2203.129 0.0 62564.96 1171.002 5457.781 102.151
0.02317548 3077147.0 807.3675 1614.735 0.0 58034.73 1634.781 5062.591 142.6082
0.02371531 3038136.0 920.4878 1314.983 0.0 64382.03 1437.812 5616.29 125.4258
0.02426771 2955358.0 124649.8 1927.575 0.0 57920.66 2341.806 5052.64 204.2846
0.02483298 2855812.0 115031.2 1883.698 0.0 55839.39 1220.533 4871.083 106.4718
0.02541141 2858548.0 113885.4 2086.262 0.0 52331.93 1341.844 4565.114 117.0542
0.02600332 2716246.0 118728.6 3118.124 0.0 50266.51 1457.0 4384.939 127.0997
0.02660901 2683130.0 107939.3 1992.365 0.0 50688.52 1708.602 4421.753 149.0479
0.02722882 2645418.0 100672.0 2405.134 0.0 49952.13 1947.994 4357.515 169.931
0.02786306 2572218.0 110692.0 3245.772 0.0 57925.42 815.851 5053.056 71.1698
0.02851207 2535652.0 98875.44 1968.759 0.0 50760.16 1063.04 4428.002 92.73303
0.0291762 2441379.0 96517.88 1603.287 0.0 46618.04 1298.553 4066.67 113.2777
0.0298558 2384239.0 93694.14 1462.339 0.0 52155.66 1395.893 4549.737 121.7691
0.03055124 2333540.0 94215.36 2245.653 0.0 48612.24 868.0758 4240.632 75.72556
0.03126287 2308253.0 89975.97 1097.268 0.0 45566.69 848.316 3974.956 74.00184
0.03199107 2239529.0 91047.26 1657.177 0.0 45950.61 1184.294 4008.447 103.3105
0.03273624 2172451.0 90117.92 1524.193 0.0 47219.32 578.6682 4119.122 50.47943
0.03349876 2124769.0 84249.74 1582.592 0.0 42977.7 678.5953 3749.109 59.19646
0.03427905 2061666.0 87881.43 1455.593 0.0 45757.25 663.1486 3991.58 57.84898
0.03507751 2038118.0 84636.36 1511.363 0.0 49252.06 540.0446 4296.446 47.11015
0.03589457 1995461.0 84360.52 1129.441 0.0 44331.14 1477.705 3867.174 128.9058
0.03673066 1938662.0 85157.11 1613.146 0.0 43115.74 1237.773 3761.151 107.9756
0.03758623 1901502.0 80563.67 1078.607 0.0 38505.52 1007.998 3358.983 87.9315
0.03846173 1856191.0 78891.98 1540.542 0.0 41470.73 886.5477 3617.65 77.33694
0.03935762 1800707.0 75273.76 1901.653 0.0 42355.74 577.5783 3694.853 50.38436
0.04027437 1778147.0 74102.34 1548.638 0.0 41485.68 564.431 3618.954 49.23747
0.04121248 1749551.0 72415.57 983.7016 0.0 41460.65 643.5135 3616.771 56.13614
0.04217245 1689761.0 75647.68 1183.15 0.0 39528.68 539.0274 3448.237 47.02142
0.04315477 1658596.0 66627.1 1300.746 0.0 39682.41 351.1718 3461.648 30.63405
0.04415997 1622678.0 67370.28 1482.994 0.0 35433.14 943.7398 3090.968 82.32603
0.04518859 1559310.0 69839.4 1035.169 0.0 33955.85 754.5745 2962.099 65.82441
0.04624117 1547150.0 69935.67 944.1653 0.0 38508.58 1228.997 3359.25 107.2101
0.04731826 1516677.0 67421.07 1384.01 0.0 38913.1 720.613 3394.539 62.86182
0.04842045 1493360.0 64984.71 1223.696 0.0 34036.81 625.9643 2969.161 54.60526
0.0495483 1443821.0 65330.71 1699.354 0.0 35020.72 611.7156 3054.991 53.36229
0.05070243 1420428.0 65504.27 1230.127 0.0 33551.04 747.2391 2926.785 65.18452
0.05188344 1384068.0 62811.09 1262.232 0.0 34466.85 803.2529 3006.675 70.07081
0.05309196 1343223.0 59384.23 1057.286 0.0 32540.52 499.5255 2838.633 43.57551
0.05432863 1312590.0 57056.67 1262.824 0.0 32566.9 697.3641 2840.935 60.83373
0.05559411 1275981.0 55084.76 1346.267 0.0 31689.29 1090.384 2764.378 95.11838
0.05688906 1267876.0 55146.5 1096.352 0.0 30235.38 865.7708 2637.548 75.52449
0.05821418 1229159.0 54159.07 696.4074 0.0 30458.29 780.9817 2656.992 68.12801
0.05957016 1208352.0 53973.26 889.9568 0.0 32690.59 636.0036 2851.725 55.48102
0.06095773 1170871.0 49419.36 1227.81 0.0 30392.64 932.2896 2651.266 81.32718
0.06237762 1132870.0 52543.95 1099.873 0.0 28607.54 668.1166 2495.545 58.28236
0.06383058 1121446.0 48709.67 1123.693 0.0 32704.78 474.8425 2852.963 41.42232
0.06531738 1089378.0 46884.74 859.3944 0.0 31206.27 812.0591 2722.242 70.83901
0.06683882 1072559.0 48337.01 1073.119 0.0 28001.84 736.8905 2442.707 64.28177
0.0683957 1032232.0 46416.01 729.5247 0.0 29801.76 664.7232 2599.721 57.98634
0.06998884 1020989.0 45805.02 534.689 0.0 29556.45 595.4596 2578.322 51.94421
0.07161909 1001536.0 45894.5 827.3202 0.0 28354.66 476.1043 2473.485 41.5324
0.07328731 970015.5 43871.11 893.5921 0.0 27864.31 361.8742 2430.711 31.56767
0.07499439 942279.9 44119.99 1122.752 0.0 26371.21 303.1174 2300.462 26.44209
0.07674123 930055.5 45472.63 1015.921 0.0 27153.28 641.8048 2368.684 55.98708
0.07852877 922108.9 45350.92 794.2368 0.0 26149.23 675.4413 2281.097 58.92133
0.08035794 895142.7 42533.44 1009.005 0.0 28052.82 377.1808 2447.155 32.90292
0.08222971 877611.1 40730.93 1213.584 0.0 24050.83 645.0415 2098.046 56.26943
0.08414509 846256.5 37876.59 1000.654 0.0 25889.73 450.2561 2258.46 39.27756
0.08610508 827102.0 39115.04 579.4821 0.0 24464.39 616.0098 2134.122 53.73689
0.08811073 806151.2 39392.65 920.2236 0.0 24552.5 429.9912 2141.808 37.50978
0.09016309 800633.0 37804.21 795.514 0.0 25338.27 630.3051 2210.354 54.98392
0.09226326 772369.7 36031.07 980.2075 0.0 24350.86 574.8938 2124.218 50.15018
0.09441234 748578.6 35409.09 561.5248 0.0 23074.24 481.5494 2012.854 42.00739
0.09661149 732023.1 35151.83 645.5799 0.0 23411.75 627.4507 2042.297 54.73492
0.09886186 718073.0 32774.46 820.1501 0.0 23492.0 344.9071 2049.297 30.08756
0.1011646 715322.0 32860.73 739.8288 0.0 20448.07 449.408 1783.763 39.20358
0.1035211 697231.8 32865.84 662.7392 0.0 22178.5 329.3837 1934.715 28.7334
0.1059324 684010.4 31558.39 735.9698 0.0 21208.71 500.7116 1850.117 43.67898
0.1083999 658083.7 31501.71 690.4484 0.0 21949.23 803.873 1914.715 70.12491
0.1109248 642260.4 31290.69 787.1872 0.0 21961.93 648.9529 1915.823 56.61064
0.1135086 629564.0 31732.33 659.3731 0.0 21895.93 400.5353 1910.066 34.94023
0.1161526 616790.6 30687.83 483.273 0.0 20027.56 587.1271 1747.08 51.21734
0.1188581 599549.7 29149.7 655.9338 0.0 18966.04 446.2597 1654.48 38.92893
0.1216267 581902.5 28870.77 487.1622 0.0 20247.57 342.6512 1766.273 29.89077
0.1244597 578052.9 29742.04 726.6378 0.0 18782.13 304.4105 1638.437 26.55489
0.1273587 561981.0 27179.6 710.0975 0.0 18205.85 386.7256 1588.166 33.73555
0.1303253 550648.4 27494.13 693.9337 0.0 19681.05 261.6388 1716.853 22.82375
0.133361 532314.9 26844.91 420.9132 0.0 17670.55 340.9109 1541.469 29.73896
0.1364674 530915.4 25685.4 616.998 0.0 17656.99 610.7764 1540.287 53.28036
0.1396461 511125.9 24788.09 558.2902 0.0 17282.2 325.5673 1507.592 28.40048
0.1428989 504597.9 25096.77 523.7587 0.0 17790.25 450.7218 1551.912 39.31818
0.1462274 487694.9 25570.5 447.8569 0.0 17851.67 336.8239 1557.269 29.38244
0.1496335 475426.5 24675.83 541.8678 0.0 16685.72 126.5988 1455.559 11.0437
0.1531189 463382.5 22423.7 590.6334 0.0 17122.44 395.8946 1493.656 34.5354
0.1566855 460457.5 23605.04 417.9644 0.0 16829.41 507.7839 1468.093 44.29592
0.1603352 442721.3 23456.72 466.8004 0.0 16517.21 330.8169 1440.86 28.85842
0.1640699 433632.1 22276.53 570.2184 0.0 15794.86 346.3784 1377.846 30.21591
0.1678915 424355.8 22846.79 557.2387 0.0 16292.84 519.024 1421.287 45.27644
0.1718022 417382.8 23252.47 471.9471 0.0 15238.34 396.9466 1329.299 34.62717
0.175804 409443.0 21304.09 585.3747 0.0 14956.12 258.6073 1304.68 22.55931
0.179899 398042.8 19796.39 294.6924 0.0 15184.3 568.6216 1324.585 49.60303
0.1840894 388829.7 21717.41 423.5064 0.0 14385.89 246.9681 1254.936 21.54397
0.1883774 376866.6 20345.66 546.3035 0.0 14842.8 362.0196 1294.794 31.58035
0.1927653 370148.5 20481.12 452.979 0.0 14308.4 314.4703 1248.176 27.43244
0.1972553 360094.5 19335.1 458.4775 0.0 15480.84 326.519 1350.453 28.4835
0.20185 352160.4 19961.01 525.2897 0.0 13476.71 225.2376 1175.625 19.64833
0.2065517 347405.4 19355.66 437.8426 0.0 14068.73 385.1934 1227.269 33.60189
0.2113629 335440.1 18516.71 516.4022 0.0 15164.57 358.5004 1322.863 31.27335
0.2162862 331005.4 17431.96 446.9734 0.0 13645.74 227.7209 1190.37 19.86497
0.2213241 319426.9 17345.15 380.4379 0.0 12924.29 427.9565 1127.435 37.33228
0.2264794 314538.0 18162.05 385.5476 0.0 12546.45 301.1148 1094.475 26.26739
0.2317548 308723.9 18259.96 349.8592 0.0 12865.73 245.2172 1122.326 21.39123
0.2371531 304405.3 16476.73 407.6446 0.0 12684.7 223.6596 1106.535 19.51068
0.2426771 291513.6 16410.09 372.6645 0.0 12411.57 405.913 1082.709 35.40934
0.2483298 289963.9 16739.8 464.6455 0.0 12495.21 213.5933 1090.005 18.63256
0.2541141 281817.2 15941.5 319.0754 0.0 11271.49 283.2782 983.2552 24.71144
0.2600332 270329.3 15842.47 431.7402 0.0 11801.7 174.84 1029.507 15.25196
0.2660901 270047.5 15341.21 468.7918 0.0 11988.69 242.0519 1045.819 21.11511
0.2722882 263339.3 14923.28 251.9664 0.0 11020.08 320.0276 961.3237 27.91723
0.2786306 255867.6 15400.63 335.7695 0.0 11816.24 380.7305 1030.776 33.21257
0.2851207 250568.3 14951.63 306.2514 0.0 10896.16 239.184 950.5136 20.86493
0.291762 243379.0 13692.07 342.0346 0.0 11024.71 207.7684 961.7278 18.12443
0.298558 240701.0 14038.45 376.03 0.0 10558.03 253.7988 921.0173 22.13984
0.3055124 234099.1 14178.24 438.9231 0.0 10888.15 173.6152 949.8149 15.14511
0.3126287 229887.6 13735.8 428.932 0.0 10519.12 242.376 917.6228 21.14338
0.3199107 223046.3 13540.11 360.6797 0.0 10102.03 94.74353 881.2386 8.26484
0.3273624 217988.2 12793.7 323.891 0.0 9802.639 254.614 855.1216 22.21095
0.3349876 211946.3 12893.47 335.1371 0.0 10359.89 237.5084 903.7326 20.71876
0.3427905 208823.0 12736.44 418.483 0.0 9726.179 209.9971 848.4517 18.31884
0.3507751 204451.9 12739.91 346.7246 0.0 9861.214 205.2169 860.2313 17.90186
0.3589457 201092.5 12493.35 295.3921 0.0 9520.64 158.3255 830.5218 13.81134
0.3673066 195479.3 12293.87 288.6682 0.0 9427.701 165.0363 822.4143 14.39675
0.3758623 190813.9 12445.47 224.0184 0.0 8900.621 181.4396 776.4351 15.82767
0.3846173 185084.0 11554.07 283.7841 0.0 9003.384 167.459 785.3996 14.60809
0.3935762 181647.5 11877.41 253.5537 0.0 8731.058 144.3946 761.6435 12.59609
0.4027437 178240.5 11281.83 255.5253 0.0 8692.237 319.8442 758.257 27.90123
0.4121248 173002.8 12023.86 302.6774 0.0 8273.744 220.6332 721.7503 19.24668
0.4217245 168613.7 10914.56 229.2354 0.0 8642.406 179.6758 753.9101 15.67381
0.4315477 164660.0 10738.38 289.0547 0.0 8463.239 149.248 738.2807 13.01947
0.4415997 159513.6 10931.78 240.1037 0.0 8279.172 188.748 722.2238 16.46521
0.4518859 158263.5 10096.35 200.1327 0.0 8317.087 134.1466 725.5313 11.70212
0.4624117 153231.3 10304.89 242.7854 0.0 8111.381 262.186 707.5867 22.87149
0.4731826 150811.0 9984.645 303.1641 0.0 7990.798 240.2043 697.0678 20.95394
0.4842045 148885.2 9821.772 309.1443 0.0 7785.431 125.1929 679.1529 10.92105
0.495483 142405.8 9522.674 182.5232 0.0 7524.102 221.7469 656.3562 19.34383
0.5070243 140880.3 9699.553 209.1216 0.0 7345.36 164.3926 640.7638 14.34059
0.5188344 136357.2 9623.019 228.4039 0.0 7148.95 204.4644 623.6302 17.83621
0.5309196 135544.1 9597.808 229.0786 0.0 6836.363 192.6741 596.362 16.8077
0.5432863 131276.3 8983.268 172.2032 0.0 6659.827 125.5255 580.9622 10.95007
0.5559411 128607.8 9479.964 229.9873 0.0 7237.426 170.3725 631.3483 14.86225
0.5688906 125669.3 8721.48 285.0515 0.0 6799.631 106.5564 593.1578 9.295322
0.5821418 123269.5 8806.875 214.2792 0.0 6579.771 175.7209 573.9785 15.3288
0.5957016 119966.2 8862.923 183.2264 0.0 6328.236 152.6409 552.0362 13.31545
0.6095773 117153.6 8753.264 317.1843 0.0 6470.09 136.7358 564.4107 11.92799
0.6237762 115156.7 8164.06 244.9718 0.0 6085.935 163.9923 530.8994 14.30567
0.6383058 112818.8 8237.161 254.0524 0.0 6220.437 106.8396 542.6324 9.320023
0.6531738 109315.0 8321.802 219.623 0.0 6444.269 116.0084 562.1582 10.11986
0.6683882 107442.5 7913.085 200.6266 0.0 5883.787 158.7149 513.2652 13.8453
0.683957 104084.9 7751.2 168.7026 0.0 5943.733 121.8659 518.4945 10.63083
0.6998884 101991.9 7285.138 196.0526 0.0 5867.983 119.0919 511.8866 10.38884
0.7161909 100428.0 7585.22 178.527 0.0 6030.654 116.3811 526.077 10.15236
0.7328731 97158.99 7425.324 178.7184 0.0 5686.595 124.0712 496.0634 10.8232
0.7499439 94918.27 7268.778 145.5419 0.0 5870.373 161.6626 512.0951 14.10245
0.7674123 93525.7 7078.939 186.9295 0.0 5450.404 138.2349 475.4595 12.05876
0.7852877 89653.45 6901.918 182.6745 0.0 5475.899 91.66704 477.6836 7.996466
0.8035794 89456.06 7078.559 151.3508 0.0 5219.239 127.2985 455.2942 11.10474
0.8222971 87416.0 6777.11 174.4528 0.0 5132.687 92.14878 447.7439 8.03849
0.8414509 85229.75 6633.963 126.0082 0.0 5263.494 117.0666 459.1546 10.21216
0.8610508 82768.15 6421.385 162.9793 0.0 5051.28 83.60133 440.6425 7.292863
0.8811073 80501.87 6123.026 130.9549 0.0 4867.501 107.4978 424.6107 9.377444
0.9016309 78883.86 6132.376 162.5616 0.0 4588.621 67.23255 400.283 5.864952
0.9226326 76591.38 6036.726 169.0013 0.0 4788.044 98.55322 417.6794 8.597174
0.9441234 75723.27 5922.435 175.0636 0.0 4434.267 64.20659 386.8181 5.600986
0.9661149 73412.12 6181.428 142.0276 0.0 4564.704 137.2548 398.1965 11.97326
0.9886186 71990.25 5971.324 170.3389 0.0 4399.481 153.292 383.7836 13.37225
1.011646 70194.34 5764.5 141.8005 0.0 4220.691 86.13654 368.1869 7.514019
1.035211 68596.52 5458.561 120.498 0.0 4373.484 98.81511 381.5157 8.620019
1.059324 67247.04 5693.463 156.0256 0.0 4116.564 75.10674 359.1036 6.551847
1.083999 66173.73 5727.845 158.2278 0.0 4278.002 101.3579 373.1865 8.841836
1.109248 64557.79 5167.322 104.0212 0.0 3890.302 61.47975 339.3659 5.363113
1.135086 63011.35 5126.626 170.3381 0.0 4198.945 96.79604 366.29 8.443888
1.161526 61875.05 5380.439 104.7091 0.0 3894.61 94.59269 339.7417 8.251682
1.188581 60209.48 5147.769 141.6817 0.0 3742.206 89.25193 326.4469 7.785787
1.216267 58920.99 5151.1 115.3805 0.0 3843.924 87.22031 335.3201 7.608561
1.244597 57522.15 4973.711 125.2824 0.0 3729.028 109.5878 325.2974 9.55976
1.273587 57067.36 4875.187 122.4306 0.0 3569.775 74.37031 311.4051 6.487606
1.303253 54303.9 4831.215 134.001 0.0 3491.424 69.77034 304.5703 6.086333
1.33361 53708.52 4824.133 112.2435 0.0 3531.268 82.38679 308.046 7.186914
1.364674 52124.91 4570.356 137.1107 0.0 3387.033 88.84021 295.4638 7.749871
1.396461 50726.25 4602.545 120.5907 0.0 3638.215 59.68735 317.3754 5.206755
1.428989 50400.86 4456.314 89.47544 0.0 3446.696 84.84174 300.6684 7.401069
1.462274 49004.08 4314.355 108.7653 0.0 3254.237 51.81907 283.8796 4.520375
1.496335 47459.28 4293.26 118.7941 0.0 3344.74 45.57557 291.7745 3.975731
1.531189 46678.37 4254.597 93.68668 0.0 3179.529 71.7559 277.3624 6.259541
1.566855 45526.28 4129.886 153.2536 0.0 3150.678 103.9748 274.8457 9.070118
1.603352 44546.38 4129.239 108.9201 0.0 2970.263 42.5336 259.1074 3.710368
1.640699 43218.76 4069.459 100.7386 0.0 3006.565 62.34812 262.2741 5.438864
1.678915 42093.81 4084.56 91.01565 0.0 3078.038 94.77829 268.509 8.267872
1.718022 41587.62 3779.207 96.20461 0.0 2789.653 61.74725 243.352 5.386448
1.75804 40383.76 4063.919 106.4318 0.0 2788.649 56.03159 243.2645 4.887849
1.79899 39740.14 3700.99 84.94075 0.0 2607.235 44.22613 227.4391 3.858014
1.840894 39167.57 3774.289 77.92518 0.0 2844.249 65.85816 248.1147 5.745058
1.883774 38368.71 3666.855 79.46232 0.0 2640.732 56.31416 230.3611 4.912499
1.927653 36898.37 3460.436 80.8891 0.0 2667.101 55.0323 232.6614 4.800677
1.972553 35955.7 3642.524 82.20975 0.0 2516.117 48.01751 219.4905 4.18875
2.0185 35555.94 3480.817 100.423 0.0 2550.816 45.04751 222.5174 3.929667
2.065517 34598.62 3436.309 76.9999 0.0 2357.017 71.53593 205.6116 6.240352
2.113629 33811.06 3266.613 94.42782 0.0 2382.235 48.39755 207.8114 4.221903
2.162862 32797.76 3293.185 82.18544 0.0 2301.733 64.81288 200.789 5.653875
2.213241 32066.69 3181.588 87.35981 0.0 2254.475 58.20208 196.6664 5.07719
2.264794 31920.59 3184.899 63.33997 0.0 2196.465 60.22296 191.606 5.253479
2.317548 31050.01 3092.217 102.2665 0.0 2175.894 40.86953 189.8115 3.565205
2.371531 29882.98 3017.885 98.62369 0.0 2083.23 65.50032 181.7281 5.713843
2.426771 29572.85 2877.227 68.10765 0.0 2188.808 39.03009 190.9381 3.404744
2.483298 28800.49 2990.057 91.6733 0.0 2175.6 47.29566 189.7859 4.125781
2.541141 28088.45 2995.627 68.72394 0.0 2011.275 46.21908 175.4512 4.031867
2.600332 27301.57 2878.268 63.56175 0.0 2066.026 43.71 180.2274 3.812991
2.660901 26671.91 2761.184 75.00669 0.0 1789.76 41.29121 156.1276 3.60199
2.722882 26251.47 2742.998 71.00872 0.0 1883.989 44.52558 164.3475 3.884136
2.786306 25641.6 2715.256 59.31928 0.0 1832.945 51.67056 159.8948 4.50742
2.851207 25239.49 2606.418 61.25027 0.0 1773.948 46.508 154.7482 4.05707
2.91762 24734.44 2664.663 60.92491 0.0 1879.006 31.16527 163.9129 2.718665
2.98558 23691.98 2621.765 56.4045 0.0 1732.177 36.80083 151.1044 3.210277
3.055124 23431.35 2636.601 59.20358 0.0 1660.505 44.6439 144.8522 3.894458
3.126287 22859.08 2404.014 74.81372 0.0 1729.353 33.93264 150.858 2.960074
3.199107 22438.18 2372.688 51.66493 0.0 1691.172 46.18747 147.5274 4.02911
3.273624 21785.48 2417.751 60.0151 0.0 1612.17 32.40542 140.6357 2.826848
3.349876 21098.74 2369.233 52.13244 0.0 1608.271 39.58473 140.2956 3.453127
3.427905 20926.88 2187.938 49.12627 0.0 1527.452 32.05218 133.2455 2.796034
3.507751 20571.44 2168.362 69.34491 0.0 1499.164 24.84205 130.7778 2.167067
3.589457 19755.65 2185.033 55.60322 0.0 1509.37 31.6651 131.6681 2.762267
3.673066 19581.04 2137.843 46.69632 0.0 1437.879 26.8184 125.4317 2.339472
3.758623 19153.58 2135.642 48.95218 0.0 1410.189 38.30392 123.0162 3.341397
3.846173 18386.78 2040.002 64.86494 0.0 1384.985 32.50675 120.8175 2.835688
3.935762 18213.08 2079.933 48.33368 0.0 1338.056 31.7668 116.7238 2.77114
4.027437 17763.66 1995.42 39.49028 0.0 1328.294 18.81437 115.8722 1.641249
4.121248 17185.27 2002.211 40.10476 0.0 1313.687 12.87027 114.5979 1.122723
4.217245 16775.6 1955.156 45.10761 0.0 1257.731 22.45948 109.7166 1.959226
4.315477 16494.9 1886.082 49.13929 0.0 1231.735 22.82616 107.4489 1.991213
4.415997 16067.88 1865.041 45.90219 0.0 1201.123 30.02809 104.7786 2.619465
4.518859 15679.36 1804.645 45.54744 0.0 1211.511 29.34456 105.6847 2.559838
4.624117 15379.78 1744.683 55.30111 0.0 1148.703 26.2186 100.2057 2.287149
4.731826 15097.57 1769.556 42.17936 0.0 1164.19 20.01703 101.5568 1.746162
4.842045 14780.32 1716.395 41.21924 0.0 1093.09 19.56139 95.35443 1.706414
4.95483 14529.47 1683.619 45.94549 0.0 1093.442 25.23327 95.38509 2.201194
5.070243 14080.65 1616.387 36.28875 0.0 1052.113 19.42822 91.7798 1.694798
5.188344 13778.77 1634.29 32.4574 0.0 1004.796 16.06506 87.65222 1.401416
5.309196 13428.71 1592.39 41.11668 0.0 984.0652 32.11235 85.84376 2.801283
5.432863 13030.62 1553.273 41.32877 0.0 1009.086 26.49984 88.02641 2.311682
5.559411 12794.03 1581.864 35.33951 0.0 946.5898 21.80769 82.57465 1.902368
5.688906 12498.41 1506.388 35.63144 0.0 963.6695 25.30715 84.06457 2.207639
5.821418 12124.99 1459.241 36.96316 0.0 923.5108 20.82618 80.56137 1.816747
5.957016 11971.49 1421.837 33.50426 0.0 937.4694 16.53609 81.77903 1.442507
6.095773 11682.61 1400.727 28.64891 0.0 876.3523 11.809 76.44755 1.030144
6.237762 11368.19 1424.836 34.49603 0.0 855.7967 20.0435 74.65441 1.748471
6.383058 11250.61 1345.501 33.7108 0.0 808.4194 24.92923 70.52151 2.174672
6.531738 10950.59 1312.964 32.94345 0.0 834.1007 16.24118 72.76179 1.41678
6.683882 10504.9 1266.28 30.32727 0.0 842.8893 14.17097 73.52846 1.236188
6.83957 10463.21 1328.647 28.72503 0.0 858.0469 12.18659 74.8507 1.063083
6.998884 10141.71 1250.727 28.96232 0.0 811.9903 14.61583 70.83302 1.274994
7.161909 9831.612 1189.599 35.26996 0.0 772.876 12.69611 67.42092 1.107531
7.328731 9779.301 1228.476 27.23328 0.0 750.1135 16.02586 65.43527 1.397997
7.499439 9540.48 1153.108 26.61338 0.0 717.883 14.65067 62.62368 1.278034
7.674123 9301.368 1159.369 23.56937 0.0 763.7477 20.73523 66.62463 1.808813
7.852877 8967.728 1092.076 28.19541 0.0 706.8011 16.40358 61.65696 1.430946
8.035794 8788.434 1119.608 25.61321 0.0 710.0429 18.38756 61.93975 1.604017
8.222971 8579.662 1078.573 26.16791 0.0 675.4506 19.81199 58.92213 1.728275
8.414509 8474.795 1027.708 30.39022 0.0 680.337 13.95794 59.34839 1.217604
8.610508 8333.676 1041.981 17.74664 0.0 642.8502 14.52023 56.07828 1.266655
8.811073 8058.327 1023.926 21.94379 0.0 618.3274 13.32973 53.93906 1.162803
9.016309 7982.119 1016.874 22.82779 0.0 606.7738 10.50509 52.93119 0.9163987
9.226326 7799.409 980.8835 18.92814 0.0 616.7789 12.72979 53.80398 1.110468
9.441234 7541.938 981.0168 22.13068 0.0 596.3187 10.83486 52.01915 0.9451663
9.661149 7329.914 927.3755 16.78508 0.0 572.1566 8.627447 49.9114 0.7526051
9.886186 7176.314 890.4938 26.18172 0.0 571.3961 12.26336 49.84506 1.06978
10.11646 7010.186 901.0499 18.49572 0.0 537.0426 11.60971 46.84828 1.012759
10.35211 6861.159 918.7976 20.18342 0.0 555.9265 14.27329 48.49559 1.245114
10.59324 6785.642 870.2107 20.31277 0.0 549.7098 7.510674 47.95328 0.6551847
10.83999 6608.167 855.293 21.57651 0.0 558.517 9.08726 48.72157 0.7927164
11.09248 6402.644 831.3259 18.55513 0.0 530.0921 8.880408 46.24196 0.7746719
11.35086 6217.614 809.3805 16.48433 0.0 500.0016 11.01472 43.61705 0.9608562
11.61526 6208.178 811.8986 16.1091 0.0 483.7275 10.11163 42.19739 0.8820763
11.88581 6005.73 800.5016 17.05428 0.0 462.835 11.79401 40.37487 1.028836
12.16267 5826.204 766.6395 22.5633 0.0 446.0696 11.83704 38.91235 1.03259
12.44597 5734.676 729.6446 16.28671 0.0 434.3938 10.04555 37.89383 0.8763113
12.73587 5542.679 717.1985 15.91598 0.0 440.5697 9.816881 38.43258 0.856364
13.03253 5475.376 723.8447 16.03226 0.0 403.7958 9.884131 35.22465 0.8622305
13.3361 5314.263 696.1436 13.32892 0.0 436.3659 7.670494 38.06586 0.6691265
13.64674 5174.557 675.2701 11.88292 0.0 411.1636 6.38539 35.86737 0.5570219
13.96461 5063.022 681.784 17.64197 0.0 399.3626 8.681796 34.83793 0.7573462
14.28989 5022.191 639.6403 13.9669 0.0 383.1135 11.13548 33.42045 0.9713903
14.62274 4894.01 649.6058 14.92856 0.0 366.1017 9.586527 31.93645 0.8362694
14.96335 4685.281 619.3966 16.04762 0.0 364.8578 8.102323 31.82793 0.7067966
15.31189 4533.213 604.2791 12.62733 0.0 365.9551 8.165326 31.92366 0.7122926
15.66855 4527.749 599.4804 15.32536 0.0 357.1413 5.803244 31.1548 0.5062391
16.03352 4411.653 607.6186 12.05901 0.0 337.6695 9.688208 29.4562 0.8451394
16.40699 4334.23 567.3674 14.82568 0.0 332.2924 8.082164 28.98713 0.705038
16.78915 4203.623 557.4244 9.658804 0.0 335.5603 7.446866 29.27221 0.6496185
17.18022 4096.683 564.7029 11.25412 0.0 315.352 6.836303 27.50936 0.5963568
17.5804 4042.456 535.7065 13.30397 0.0 303.6481 7.75822 26.48838 0.6767792
17.9899 3962.053 522.2989 10.7476 0.0 306.0027 6.107417 26.69378 0.5327733
18.40894 3863.395 511.9346 10.16415 0.0 287.9236 7.409043 25.11668 0.6463191
18.83774 3792.505 503.4269 10.59498 0.0 289.2134 4.223562 25.22919 0.3684375
19.27653 3724.458 477.8928 10.83914 0.0 278.6993 5.50323 24.312 0.4800677
19.72553 3589.879 491.6776 12.01527 0.0 271.2029 5.377961 23.65806 0.46914
20.185 3491.168 478.1682 10.81479 0.0 250.9522 3.190866 21.89152 0.2783514
20.65517 3442.047 465.472 10.26665 0.0 259.7304 4.218785 22.65728 0.3680208
21.13629 3339.942 449.8601 10.62313 0.0 245.2142 5.198255 21.39097 0.4534636
21.62862 3262.906 454.0385 9.948763 0.0 249.6172 5.255098 21.77506 0.4584223
22.13241 3210.473 436.94 12.82217 0.0 237.7726 6.333756 20.74181 0.5525177
22.64794 3132.299 441.452 8.261735 0.0 233.6985 4.014864 20.38642 0.3502319
23.17548 3086.835 412.2957 7.131746 0.0 225.7633 4.904343 19.69419 0.4278246
23.71531 3001.974 405.4091 8.415889 0.0 210.5596 4.952464 18.36792 0.4320223
24.26771 2909.61 388.0851 9.894885 0.0 217.7879 6.557056 18.99847 0.571997
24.83298 2839.989 383.5209 8.037111 0.0 210.6945 5.339833 18.37969 0.465814
25.41141 2771.538 370.2502 8.467771 0.0 204.7058 3.727345 17.85727 0.3251505
26.00332 2719.963 368.5382 8.634804 0.0 194.0724 5.828001 16.92968 0.5083987
26.60901 2666.371 357.4537 9.610232 0.0 197.4859 3.132437 17.22745 0.2732544
27.22882 2603.386 346.3393 5.61198 0.0 199.252 4.313415 17.38151 0.3762757
27.86306 2524.203 356.2515 7.386929 0.0 171.0568 3.127429 14.92193 0.2728176
28.51207 2503.824 339.7203 7.875035 0.0 173.5413 5.71384 15.13867 0.49844
29.1762 2432.721 331.0253 7.802663 0.0 177.7719 3.635948 15.50772 0.3171776
29.8558 2384.97 325.3704 6.684978 0.0 164.8423 4.822177 14.37983 0.420657
30.55124 2307.307 319.3931 6.839035 0.0 160.842 3.224281 14.03087 0.2812664
31.26287 2306.258 309.7288 6.084849 0.0 163.119 2.544948 14.2295 0.2220055
31.99107 2207.262 297.0246 6.628708 0.0 152.1818 4.263459 13.2754 0.3719178
32.73624 2164.735 289.5967 6.573083 0.0 147.9076 3.472009 12.90254 0.3028766
33.49876 2108.292 292.1278 6.330367 0.0 143.7491 2.488183 12.53978 0.2170537
34.27905 2059.118 291.5735 5.458474 0.0 140.698 2.763119 12.27363 0.2410374
35.07751 2005.935 271.4231 6.312165 0.0 135.0111 1.728143 11.77754 0.1507525
35.89457 1960.448 272.9771 4.691522 0.0 131.4102 3.06096 11.46341 0.2670192
36.73066 1953.435 269.0557 6.367681 0.0 132.4417 2.784988 11.55339 0.2429452
37.58623 1897.685 259.9444 6.222734 0.0 126.1005 2.116795 11.00023 0.1846561
38.46173 1847.678 255.73 4.297302 0.0 124.0182 3.644696 10.81858 0.3179408
39.35762 1796.745 250.3051 6.021901 0.0 116.9596 2.406576 10.20283 0.2099348
40.27437 1743.302 238.5677 4.800779 0.0 118.9068 1.975508 10.37269 0.1723311
41.21248 1687.502 230.8672 4.6915 0.0 110.4085 2.206332 9.631357 0.1924668
42.17245 1678.964 237.7393 5.25023 0.0 103.5831 1.976434 9.035949 0.1724119
43.15477 1648.117 227.7751 4.769402 0.0 108.5121 2.633788 9.465922 0.2297554
44.15997 1599.373 218.3532 5.720118 0.0 104.6693 1.88748 9.130705 0.1646521
45.18859 1554.893 214.7631 5.037823 0.0 95.99864 1.928357 8.374328 0.1682179
46.24117 1523.613 210.8186 4.788267 0.0 97.09077 2.457994 8.469599 0.2144202
47.31826 1490.777 203.5813 4.481557 0.0 96.80235 2.001703 8.444438 0.1746162
48.42045 1447.053 195.6626 4.95919 0.0 90.45184 2.582103 7.89046 0.2252467
49.5483 1433.562 192.2787 3.776341 0.0 86.2519 2.676256 7.524083 0.23346
50.70243 1388.075 190.1777 4.428458 0.0 84.66219 1.868098 7.385406 0.1629613
51.88344 1364.954 185.1274 4.507973 0.0 84.92573 1.606506 7.408396 0.1401416
53.09196 1334.295 182.6755 3.817977 0.0 77.99733 1.498576 6.804005 0.1307265
54.32863 1291.811 175.1881 3.73107 0.0 75.31532 1.185519 6.570043 0.1034173
55.59411 1255.843 171.7052 3.702235 0.0 66.85419 1.226682 5.831946 0.1070082
56.88906 1232.629 166.3166 3.289056 0.0 70.06084 2.131128 6.111674 0.1859064
58.21418 1214.534 169.7091 3.642746 0.0 64.95164 1.627045 5.66598 0.1419334
59.57016 1172.021 161.3963 3.088674 0.0 64.29997 1.526409 5.609132 0.1331545
60.95773 1143.705 157.3643 3.325319 0.0 63.70646 1.305205 5.557358 0.1138581
62.37762 1126.82 151.2826 2.899666 0.0 62.07411 1.761398 5.414961 0.1536535
63.83058 1106.056 148.523 2.638237 0.0 58.93983 1.543238 5.141546 0.1346226
65.31738 1067.129 146.0016 2.291718 0.0 56.20609 1.392101 4.903072 0.1214383
66.83882 1047.597 138.8056 2.332867 0.0 54.81332 1.02031 4.781575 0.08900553
68.3957 1021.243 144.5371 3.282861 0.0 52.67931 0.9970848 4.595418 0.08697951
69.98884 1003.299 138.4399 2.539773 0.0 50.39753 0.866123 4.396369 0.07555522
71.61909 969.3144 131.5439 2.786763 0.0 49.99095 0.9522086 4.360902 0.08306479
73.28731 950.9522 129.4857 2.1276 0.0 46.68177 0.98223 4.072229 0.08568367
74.99439 933.6305 125.0413 2.786088 0.0 46.98319 1.262989 4.098523 0.1101754
76.74123 914.5729 124.0237 2.519485 0.0 43.44525 0.5430656 3.789895 0.04737368
78.52877 897.6067 120.2872 2.303287 0.0 44.28965 0.7719329 3.863555 0.06733866
80.35794 882.9571 116.1132 2.250857 0.0 38.89677 0.7543616 3.393114 0.06580584
82.22971 861.9483 115.1009 2.465093 0.0 39.62398 0.6450415 3.456551 0.05626943
84.14509 832.8403 108.4783 2.223675 0.0 36.87597 0.9005122 3.216832 0.07855512
86.10508 812.3976 110.3189 2.028187 0.0 36.25658 0.6600105 3.1628 0.05757524
88.11073 793.2681 101.6847 1.628088 0.0 35.77527 0.9029816 3.120813 0.07877053
90.16309 776.1104 98.50539 1.902316 0.0 30.46475 0.9664679 2.657556 0.08430868
92.26326 761.3508 102.7528 2.061816 0.0 31.08533 0.7391492 2.711692 0.0644788
94.41234 739.6933 98.06865 1.981852 0.0 28.89296 0.7223241 2.520444 0.06301109
96.61149 716.2063 93.93188 1.484834 0.0 27.17646 0.6666663 2.370706 0.05815585
98.86186 705.613 89.86953 1.703389 0.0 27.86083 0.4598761 2.430406 0.04011675
101.1646 692.1715 88.40954 2.311965 0.0 25.87841 0.3745067 2.257473 0.03266965
103.5211 671.7163 84.46913 1.717097 0.0 24.92337 0.3293837 2.17416 0.0287334
105.9324 658.6341 86.72669 1.736889 0.0 23.39038 0.3576511 2.040432 0.03119927
108.3999 637.7442 84.63747 1.294591 0.0 21.52982 0.873775 1.878128 0.07622273
110.9248 640.9953 77.93154 1.658716 0.0 22.54258 0.5806421 1.966475 0.05065163
113.5086 607.5849 81.24026 1.098955 0.0 20.02677 0.5006692 1.747011 0.04367528
116.1526 595.9293 78.42446 1.261879 0.0 18.39665 0.391418 1.60481 0.03414489
118.8581 591.6785 74.46161 1.075731 0.0 18.13727 0.5737624 1.582183 0.05005149
121.6267 576.3642 71.74105 1.435847 0.0 17.88016 0.280351 1.559755 0.02445609
124.4597 560.5886 69.85746 1.077429 0.0 17.68625 0.3957336 1.542839 0.03452135
127.3587 549.5175 68.85497 1.19982 0.0 15.49877 0.3569775 1.352017 0.03114051
130.3253 530.2132 67.93372 1.076794 0.0 15.20412 0.2325678 1.326313 0.02028778
133.361 519.7576 66.01321 1.145819 0.0 13.43757 0.2272739 1.172211 0.01982597
136.4674 511.9941 63.32228 1.2797 0.0 13.35379 0.2776257 1.164902 0.02421835
139.6461 489.0399 60.20602 0.9825908 0.0 12.64287 0.1899143 1.102885 0.01656695
142.8989 483.4511 60.71236 1.047517 0.0 11.00291 0.1855913 0.9598261 0.01618984
146.2274 476.5198 59.62895 1.343571 0.0 11.11519 0.3368239 0.9696204 0.02938244
149.6335 466.6524 58.52172 1.1671 0.0 11.06474 0.07595928 0.9652191 0.006626218
153.1189 449.9201 55.27514 0.9165001 0.0 8.536477 0.2226907 0.7446695 0.01942616
156.6855 442.5447 52.50429 1.214087 0.0 8.946668 0.1692613 0.780452 0.01476531
160.3352 428.5617 50.92015 0.9919509 0.0 7.774196 0.1417787 0.6781728 0.01236789
164.0699 419.0535 51.56675 0.9313568 0.0 7.66651 0.0 0.6687789 0.0
167.8915 411.6694 48.46119 1.040179 0.0 6.295987 0.06769878 0.549223 0.005905623
171.8022 406.6914 46.16006 0.8531352 0.0 5.733673 0.04410518 0.5001702 0.003847463
175.804 385.0701 46.93641 0.7095451 0.0 5.775564 0.06465183 0.5038245 0.005639826
179.899 379.4598 44.03051 0.5547151 0.0 5.138655 0.08424024 0.4482645 0.007348598
184.0894 373.2447 44.09549 0.6945506 0.0 4.321942 0.0823227 0.3770195 0.007181323
188.3774 366.4868 41.4694 0.5297488 0.0 4.20345 0.0402244 0.366683 0.003508928
192.7653 357.5136 40.47691 0.630935 0.0 3.812952 0.05896317 0.3326183 0.005143583
197.2553 343.6368 39.74525 0.6007636 0.0 3.514881 0.07682801 0.3066165 0.006702001
201.85 335.9073 39.44308 0.4789407 0.0 3.190866 0.05630939 0.2783514 0.004912083
206.5517 332.5641 36.41643 0.6794109 0.0 3.008177 0.09171273 0.2624148 0.008000451
211.3629 321.3202 36.50226 0.6049282 0.0 2.473652 0.05377505 0.2157861 0.004691003
216.2862 312.5354 33.5951 0.5334844 0.0 2.224658 0.08758497 0.1940654 0.007640372
221.3241 304.9562 33.14037 0.4367991 0.0 1.848772 0.05135478 0.1612754 0.004479873
226.4794 299.2263 31.73883 0.4130867 0.0 2.040889 0.0501858 0.1780346 0.004377899
231.7548 288.3648 30.78761 0.3767715 0.0 1.356868 0.01634781 0.1183648 0.001426082
237.1531 285.4433 29.8501 0.4733937 0.0 1.341958 0.04792707 0.1170641 0.004180861
242.6771 278.6888 29.4662 0.2955615 0.0 1.155291 0.01561204 0.1007804 0.001361898
248.3298 272.0311 28.38105 0.3139497 0.0 1.05271 0.0 0.0918319 0.0
254.1141 264.3049 28.23817 0.466341 0.0 0.9840191 0.02981876 0.08583974 0.002601204
260.0332 258.5644 27.53543 0.3717763 0.0 0.9470501 0.0 0.0826148 0.0
266.0901 249.8777 25.85387 0.3750334 0.0 0.7688708 0.01423835 0.06707153 0.001242065
272.2882 247.202 25.52878 0.3435906 0.0 0.7513691 0.01391424 0.0655448 0.001213793
278.6306 240.2655 23.67175 0.246231 0.0 0.8022535 0.01359752 0.06998363 0.001186163
285.1207 234.0854 22.70635 0.3171889 0.0 0.624536 0.013288 0.05448066 0.001159163
291.762 232.6369 22.275 0.3420346 0.0 0.4025514 0.01298553 0.03511609 0.001132777
298.558 222.9649 22.07087 0.2506867 0.0 0.4441479 0.02537988 0.03874472 0.002213984
305.5124 219.1451 20.36399 0.2143578 0.0 0.3348292 0.0 0.02920843 0.0
312.6287 211.4535 19.09246 0.2194536 0.0 0.3514452 0.0121188 0.0306579 0.001057169
319.9107 207.9172 19.97386 0.1462215 0.0 0.3079165 0.0 0.02686073 0.0
327.3624 199.5931 18.81426 0.1333669 0.0 0.1851738 0.0 0.01615342 0.0
334.9876 194.454 17.00821 0.1675685 0.0 0.2488183 0.0 0.02170537 0.0
342.7905 190.8465 16.48459 0.1455593 0.0 0.2763119 0.0 0.02410374 0.0
350.7751 187.6313 16.46497 0.1244652 0.0 0.1080089 0.0 0.00942203 0.0
358.9457 184.038 15.70791 0.1390081 0.0 0.1266604 0.0 0.01104907 0.0
367.3066 178.5328 14.02588 0.1273536 0.0 0.08251817 0.0 0.007198375 0.0
375.8623 174.5519 14.06338 0.1825335 0.0 0.05039989 0.0 0.004396575 0.0
384.6173 168.0894 13.67029 0.1783786 0.0 0.1083558 0.0 0.009452293 0.0
393.5762 165.8004 13.69982 0.1188533 0.0 0.09626305 0.009626305 0.008397393 0.0008397393
402.7437 160.8338 12.92339 0.1084047 0.0 0.0564431 0.0 0.004923747 0.0
412.1248 155.7275 12.03899 0.06810242 0.0 0.08273744 0.0 0.007217503 0.0
421.7245 153.8909 11.81672 0.05915752 0.0 0.03593516 0.0 0.003134761 0.0
431.5477 148.8559 10.78174 0.0867164 0.0 0.02633788 0.0 0.002297554 0.0
441.5997 145.3899 11.05183 0.07768062 0.0 0.04289726 0.0 0.003742092 0.0
451.8859 142.1356 10.04804 0.06211014 0.0 0.008384161 0.0 0.0007313823 0.0
462.4117 138.7518 9.313516 0.04046423 0.0 0.01638663 0.0 0.001429468 0.0
473.1826 132.0412 8.435872 0.03954315 0.0 0.01601362 0.0 0.001396929 0.0
484.2045 129.5572 8.108597 0.06440506 0.0 0.01564911 0.0 0.001365131 0.0
495.483 125.3934 8.150604 0.03146951 0.0 0.0 0.0 0.0 0.0
507.0243 122.7052 7.817458 0.03075318 0.0 0.007472391 0.0 0.0006518452 0.0
518.8344 118.2832 7.453181 0.07813819 0.0 0.007302299 0.0 0.0006370074 0.0
530.9196 116.5482 6.796 0.0528643 0.0 0.007136078 0.0 0.0006225073 0.0